"rt","stimulus","key_press","stim","dim","respDir","comp","corrResp","trial_type","trial_index","time_elapsed","internal_node_id","date","vpNum","age","gender","handedness","corrCode","blockNum","trialNum"
"357","<div class=""right""></div><div class=""right""></div><div class=""right""></div>","77","flanker","ver","right","comp","M","single-stim","4","14084","0.0-3.0-1.0","Fri Jun 09 2017 10:39:52 GMT+0200 (CEST)","1496997588571","22","female","right","1","1","1"
"367","<div class=""right""></div><div class=""left""></div><div class=""right""></div>","67","flanker","ver","left","incomp","C","single-stim","7","16465","0.0-3.0-4.0","Fri Jun 09 2017 10:39:52 GMT+0200 (CEST)","1496997588571","22","female","right","1","1","2"
"387","<div class=""left"" style=""float: left""></div><div class=""left"" style=""float: left""></div><div class=""left"" style=""float: right""></div>","67","flanker","hor","left","comp","C","single-stim","10","18864","0.0-3.0-7.0","Fri Jun 09 2017 10:39:52 GMT+0200 (CEST)","1496997588571","22","female","right","1","1","3"
"364","<div class=""left""  style=""float: left""></div><div class=""right"" style=""float: left""></div><div class=""left""  style=""float: right""></div>","77","flanker","hor","right","incomp","M","single-stim","13","21241","0.0-3.0-10.0","Fri Jun 09 2017 10:39:52 GMT+0200 (CEST)","1496997588571","22","female","right","1","1","4"
"441","<div class=""left""></div><div class=""right""></div><div class=""left""></div>","77","flanker","ver","right","incomp","M","single-stim","16","23692","0.0-3.0-13.0","Fri Jun 09 2017 10:39:52 GMT+0200 (CEST)","1496997588571","22","female","right","1","1","5"
"516","<div class=""right"" style=""float: left""></div><div class=""right"" style=""float: left""></div><div class=""right"" style=""float: right""></div>","77","flanker","hor","right","comp","M","single-stim","19","26217","0.0-3.0-16.0","Fri Jun 09 2017 10:39:52 GMT+0200 (CEST)","1496997588571","22","female","right","1","1","6"
"382","<div class=""left""  style=""float: left""></div><div class=""right"" style=""float: left""></div><div class=""left""  style=""float: right""></div>","77","flanker","hor","right","incomp","M","single-stim","22","28610","0.0-3.0-19.0","Fri Jun 09 2017 10:39:52 GMT+0200 (CEST)","1496997588571","22","female","right","1","1","7"
"382","<div class=""left"" style=""float: left""></div><div class=""left"" style=""float: left""></div><div class=""left"" style=""float: right""></div>","67","flanker","hor","left","comp","C","single-stim","25","31002","0.0-3.0-22.0","Fri Jun 09 2017 10:39:52 GMT+0200 (CEST)","1496997588571","22","female","right","1","1","8"
"309","<div class=""left""></div><div class=""right""></div><div class=""left""></div>","77","flanker","ver","right","incomp","M","single-stim","28","33322","0.0-3.0-25.0","Fri Jun 09 2017 10:39:52 GMT+0200 (CEST)","1496997588571","22","female","right","1","1","9"
"403","<div class=""left""></div><div class=""left""></div><div class=""left""></div>","67","flanker","ver","left","comp","C","single-stim","31","35738","0.0-3.0-28.0","Fri Jun 09 2017 10:39:52 GMT+0200 (CEST)","1496997588571","22","female","right","1","1","10"
"307","<div class=""right""></div><div class=""right""></div><div class=""right""></div>","77","flanker","ver","right","comp","M","single-stim","34","38054","0.0-3.0-31.0","Fri Jun 09 2017 10:39:52 GMT+0200 (CEST)","1496997588571","22","female","right","1","1","11"
"360","<div class=""left""></div><div class=""left""></div><div class=""left""></div>","67","flanker","ver","left","comp","C","single-stim","37","40426","0.0-3.0-34.0","Fri Jun 09 2017 10:39:52 GMT+0200 (CEST)","1496997588571","22","female","right","1","1","12"
"366","<div class=""right"" style=""float: left""></div><div class=""right"" style=""float: left""></div><div class=""right"" style=""float: right""></div>","77","flanker","hor","right","comp","M","single-stim","40","42803","0.0-3.0-37.0","Fri Jun 09 2017 10:39:52 GMT+0200 (CEST)","1496997588571","22","female","right","1","1","13"
"334","<div class=""right""></div><div class=""left""></div><div class=""right""></div>","67","flanker","ver","left","incomp","C","single-stim","43","45147","0.0-3.0-40.0","Fri Jun 09 2017 10:39:52 GMT+0200 (CEST)","1496997588571","22","female","right","1","1","14"
"392","<div class=""right"" style=""float: left""></div><div class=""left""  style=""float: left""></div><div class=""right"" style=""float: right""></div>","67","flanker","hor","left","incomp","C","single-stim","46","47548","0.0-3.0-43.0","Fri Jun 09 2017 10:39:52 GMT+0200 (CEST)","1496997588571","22","female","right","1","1","15"
"389","<div class=""right"" style=""float: left""></div><div class=""left""  style=""float: left""></div><div class=""right"" style=""float: right""></div>","67","flanker","hor","left","incomp","C","single-stim","49","49947","0.0-3.0-46.0","Fri Jun 09 2017 10:39:52 GMT+0200 (CEST)","1496997588571","22","female","right","1","1","16"
"443","<div class=""left""></div><div class=""right""></div><div class=""left""></div>","77","flanker","ver","right","incomp","M","single-stim","54","55055","0.0-6.0-1.0","Fri Jun 09 2017 10:39:52 GMT+0200 (CEST)","1496997588571","22","female","right","1","2","17"
"392","<div class=""right"" style=""float: left""></div><div class=""right"" style=""float: left""></div><div class=""right"" style=""float: right""></div>","77","flanker","hor","right","comp","M","single-stim","57","56456","0.0-6.0-4.0","Fri Jun 09 2017 10:39:52 GMT+0200 (CEST)","1496997588571","22","female","right","1","2","18"
"399","<div class=""right"" style=""float: left""></div><div class=""left""  style=""float: left""></div><div class=""right"" style=""float: right""></div>","67","flanker","hor","left","incomp","C","single-stim","60","57865","0.0-6.0-7.0","Fri Jun 09 2017 10:39:52 GMT+0200 (CEST)","1496997588571","22","female","right","1","2","19"
"449","<div class=""left""></div><div class=""right""></div><div class=""left""></div>","77","flanker","ver","right","incomp","M","single-stim","63","59323","0.0-6.0-10.0","Fri Jun 09 2017 10:39:52 GMT+0200 (CEST)","1496997588571","22","female","right","1","2","20"
"369","<div class=""left""  style=""float: left""></div><div class=""right"" style=""float: left""></div><div class=""left""  style=""float: right""></div>","77","flanker","hor","right","incomp","M","single-stim","66","60702","0.0-6.0-13.0","Fri Jun 09 2017 10:39:52 GMT+0200 (CEST)","1496997588571","22","female","right","1","2","21"
"318","<div class=""right""></div><div class=""right""></div><div class=""right""></div>","77","flanker","ver","right","comp","M","single-stim","69","62028","0.0-6.0-16.0","Fri Jun 09 2017 10:39:52 GMT+0200 (CEST)","1496997588571","22","female","right","1","2","22"
"362","<div class=""left""></div><div class=""left""></div><div class=""left""></div>","77","flanker","ver","left","comp","C","single-stim","72","63398","0.0-6.0-19.0","Fri Jun 09 2017 10:39:52 GMT+0200 (CEST)","1496997588571","22","female","right","2","2","23"
"348","<div class=""right"" style=""float: left""></div><div class=""right"" style=""float: left""></div><div class=""right"" style=""float: right""></div>","77","flanker","hor","right","comp","M","single-stim","75","64754","0.0-6.0-22.0","Fri Jun 09 2017 10:39:52 GMT+0200 (CEST)","1496997588571","22","female","right","1","2","24"
"380","<div class=""left""></div><div class=""left""></div><div class=""left""></div>","67","flanker","ver","left","comp","C","single-stim","78","66142","0.0-6.0-25.0","Fri Jun 09 2017 10:39:52 GMT+0200 (CEST)","1496997588571","22","female","right","1","2","25"
"316","<div class=""right""></div><div class=""left""></div><div class=""right""></div>","77","flanker","ver","left","incomp","C","single-stim","81","67466","0.0-6.0-28.0","Fri Jun 09 2017 10:39:52 GMT+0200 (CEST)","1496997588571","22","female","right","2","2","26"
"581","<div class=""right"" style=""float: left""></div><div class=""left""  style=""float: left""></div><div class=""right"" style=""float: right""></div>","67","flanker","hor","left","incomp","C","single-stim","84","69054","0.0-6.0-31.0","Fri Jun 09 2017 10:39:52 GMT+0200 (CEST)","1496997588571","22","female","right","1","2","27"
"380","<div class=""left"" style=""float: left""></div><div class=""left"" style=""float: left""></div><div class=""left"" style=""float: right""></div>","67","flanker","hor","left","comp","C","single-stim","87","70445","0.0-6.0-34.0","Fri Jun 09 2017 10:39:52 GMT+0200 (CEST)","1496997588571","22","female","right","1","2","28"
"419","<div class=""left""  style=""float: left""></div><div class=""right"" style=""float: left""></div><div class=""left""  style=""float: right""></div>","77","flanker","hor","right","incomp","M","single-stim","90","71882","0.0-6.0-37.0","Fri Jun 09 2017 10:39:52 GMT+0200 (CEST)","1496997588571","22","female","right","1","2","29"
"409","<div class=""left""></div><div class=""left""></div><div class=""left""></div>","67","flanker","ver","left","comp","C","single-stim","93","73334","0.0-6.0-40.0","Fri Jun 09 2017 10:39:52 GMT+0200 (CEST)","1496997588571","22","female","right","1","2","30"
"388","<div class=""left""></div><div class=""left""></div><div class=""left""></div>","67","flanker","ver","left","comp","C","single-stim","96","74733","0.0-6.0-43.0","Fri Jun 09 2017 10:39:52 GMT+0200 (CEST)","1496997588571","22","female","right","1","2","31"
"353","<div class=""right"" style=""float: left""></div><div class=""right"" style=""float: left""></div><div class=""right"" style=""float: right""></div>","77","flanker","hor","right","comp","M","single-stim","99","76098","0.0-6.0-46.0","Fri Jun 09 2017 10:39:52 GMT+0200 (CEST)","1496997588571","22","female","right","1","2","32"
"444","<div class=""left""></div><div class=""right""></div><div class=""left""></div>","77","flanker","ver","right","incomp","M","single-stim","102","77552","0.0-6.0-49.0","Fri Jun 09 2017 10:39:52 GMT+0200 (CEST)","1496997588571","22","female","right","1","2","33"
"469","<div class=""right"" style=""float: left""></div><div class=""left""  style=""float: left""></div><div class=""right"" style=""float: right""></div>","67","flanker","hor","left","incomp","C","single-stim","105","79031","0.0-6.0-52.0","Fri Jun 09 2017 10:39:52 GMT+0200 (CEST)","1496997588571","22","female","right","1","2","34"
"388","<div class=""left"" style=""float: left""></div><div class=""left"" style=""float: left""></div><div class=""left"" style=""float: right""></div>","67","flanker","hor","left","comp","C","single-stim","108","80428","0.0-6.0-55.0","Fri Jun 09 2017 10:39:52 GMT+0200 (CEST)","1496997588571","22","female","right","1","2","35"
"383","<div class=""right""></div><div class=""left""></div><div class=""right""></div>","67","flanker","ver","left","incomp","C","single-stim","111","81819","0.0-6.0-58.0","Fri Jun 09 2017 10:39:52 GMT+0200 (CEST)","1496997588571","22","female","right","1","2","36"
"344","<div class=""left""  style=""float: left""></div><div class=""right"" style=""float: left""></div><div class=""left""  style=""float: right""></div>","77","flanker","hor","right","incomp","M","single-stim","114","83172","0.0-6.0-61.0","Fri Jun 09 2017 10:39:52 GMT+0200 (CEST)","1496997588571","22","female","right","1","2","37"
"441","<div class=""right""></div><div class=""left""></div><div class=""right""></div>","67","flanker","ver","left","incomp","C","single-stim","117","84624","0.0-6.0-64.0","Fri Jun 09 2017 10:39:52 GMT+0200 (CEST)","1496997588571","22","female","right","1","2","38"
"373","<div class=""left""></div><div class=""left""></div><div class=""left""></div>","67","flanker","ver","left","comp","C","single-stim","120","86007","0.0-6.0-67.0","Fri Jun 09 2017 10:39:52 GMT+0200 (CEST)","1496997588571","22","female","right","1","2","39"
"374","<div class=""right"" style=""float: left""></div><div class=""left""  style=""float: left""></div><div class=""right"" style=""float: right""></div>","77","flanker","hor","left","incomp","C","single-stim","123","87390","0.0-6.0-70.0","Fri Jun 09 2017 10:39:52 GMT+0200 (CEST)","1496997588571","22","female","right","2","2","40"
"386","<div class=""left"" style=""float: left""></div><div class=""left"" style=""float: left""></div><div class=""left"" style=""float: right""></div>","67","flanker","hor","left","comp","C","single-stim","126","88832","0.0-6.0-73.0","Fri Jun 09 2017 10:39:52 GMT+0200 (CEST)","1496997588571","22","female","right","1","2","41"
"402","<div class=""right""></div><div class=""right""></div><div class=""right""></div>","77","flanker","ver","right","comp","M","single-stim","129","90243","0.0-6.0-76.0","Fri Jun 09 2017 10:39:52 GMT+0200 (CEST)","1496997588571","22","female","right","1","2","42"
"311","<div class=""left""></div><div class=""left""></div><div class=""left""></div>","67","flanker","ver","left","comp","C","single-stim","132","91564","0.0-6.0-79.0","Fri Jun 09 2017 10:39:52 GMT+0200 (CEST)","1496997588571","22","female","right","1","2","43"
"369","<div class=""right"" style=""float: left""></div><div class=""right"" style=""float: left""></div><div class=""right"" style=""float: right""></div>","77","flanker","hor","right","comp","M","single-stim","135","92942","0.0-6.0-82.0","Fri Jun 09 2017 10:39:52 GMT+0200 (CEST)","1496997588571","22","female","right","1","2","44"
"428","<div class=""right"" style=""float: left""></div><div class=""right"" style=""float: left""></div><div class=""right"" style=""float: right""></div>","77","flanker","hor","right","comp","M","single-stim","138","94379","0.0-6.0-85.0","Fri Jun 09 2017 10:39:52 GMT+0200 (CEST)","1496997588571","22","female","right","1","2","45"
"395","<div class=""right""></div><div class=""right""></div><div class=""right""></div>","77","flanker","ver","right","comp","M","single-stim","141","95783","0.0-6.0-88.0","Fri Jun 09 2017 10:39:52 GMT+0200 (CEST)","1496997588571","22","female","right","1","2","46"
"399","<div class=""right"" style=""float: left""></div><div class=""left""  style=""float: left""></div><div class=""right"" style=""float: right""></div>","67","flanker","hor","left","incomp","C","single-stim","144","97191","0.0-6.0-91.0","Fri Jun 09 2017 10:39:52 GMT+0200 (CEST)","1496997588571","22","female","right","1","2","47"
"419","<div class=""left"" style=""float: left""></div><div class=""left"" style=""float: left""></div><div class=""left"" style=""float: right""></div>","67","flanker","hor","left","comp","C","single-stim","147","98617","0.0-6.0-94.0","Fri Jun 09 2017 10:39:52 GMT+0200 (CEST)","1496997588571","22","female","right","1","2","48"
"373","<div class=""right""></div><div class=""right""></div><div class=""right""></div>","77","flanker","ver","right","comp","M","single-stim","150","99999","0.0-6.0-97.0","Fri Jun 09 2017 10:39:52 GMT+0200 (CEST)","1496997588571","22","female","right","1","2","49"
"535","<div class=""right""></div><div class=""left""></div><div class=""right""></div>","67","flanker","ver","left","incomp","C","single-stim","153","101542","0.0-6.0-100.0","Fri Jun 09 2017 10:39:52 GMT+0200 (CEST)","1496997588571","22","female","right","1","2","50"
"384","<div class=""left""></div><div class=""right""></div><div class=""left""></div>","77","flanker","ver","right","incomp","M","single-stim","156","102933","0.0-6.0-103.0","Fri Jun 09 2017 10:39:52 GMT+0200 (CEST)","1496997588571","22","female","right","1","2","51"
"439","<div class=""right"" style=""float: left""></div><div class=""left""  style=""float: left""></div><div class=""right"" style=""float: right""></div>","67","flanker","hor","left","incomp","C","single-stim","159","104383","0.0-6.0-106.0","Fri Jun 09 2017 10:39:52 GMT+0200 (CEST)","1496997588571","22","female","right","1","2","52"
"421","<div class=""left"" style=""float: left""></div><div class=""left"" style=""float: left""></div><div class=""left"" style=""float: right""></div>","67","flanker","hor","left","comp","C","single-stim","162","105812","0.0-6.0-109.0","Fri Jun 09 2017 10:39:52 GMT+0200 (CEST)","1496997588571","22","female","right","1","2","53"
"417","<div class=""left""></div><div class=""right""></div><div class=""left""></div>","77","flanker","ver","right","incomp","M","single-stim","165","107239","0.0-6.0-112.0","Fri Jun 09 2017 10:39:52 GMT+0200 (CEST)","1496997588571","22","female","right","1","2","54"
"429","<div class=""left""></div><div class=""right""></div><div class=""left""></div>","77","flanker","ver","right","incomp","M","single-stim","168","108675","0.0-6.0-115.0","Fri Jun 09 2017 10:39:52 GMT+0200 (CEST)","1496997588571","22","female","right","1","2","55"
"369","<div class=""right""></div><div class=""left""></div><div class=""right""></div>","67","flanker","ver","left","incomp","C","single-stim","171","110053","0.0-6.0-118.0","Fri Jun 09 2017 10:39:52 GMT+0200 (CEST)","1496997588571","22","female","right","1","2","56"
"381","<div class=""right""></div><div class=""right""></div><div class=""right""></div>","77","flanker","ver","right","comp","M","single-stim","174","111442","0.0-6.0-121.0","Fri Jun 09 2017 10:39:52 GMT+0200 (CEST)","1496997588571","22","female","right","1","2","57"
"374","<div class=""left""  style=""float: left""></div><div class=""right"" style=""float: left""></div><div class=""left""  style=""float: right""></div>","77","flanker","hor","right","incomp","M","single-stim","177","112824","0.0-6.0-124.0","Fri Jun 09 2017 10:39:52 GMT+0200 (CEST)","1496997588571","22","female","right","1","2","58"
"379","<div class=""left"" style=""float: left""></div><div class=""left"" style=""float: left""></div><div class=""left"" style=""float: right""></div>","67","flanker","hor","left","comp","C","single-stim","180","114210","0.0-6.0-127.0","Fri Jun 09 2017 10:39:52 GMT+0200 (CEST)","1496997588571","22","female","right","1","2","59"
"369","<div class=""right""></div><div class=""left""></div><div class=""right""></div>","77","flanker","ver","left","incomp","C","single-stim","183","115587","0.0-6.0-130.0","Fri Jun 09 2017 10:39:52 GMT+0200 (CEST)","1496997588571","22","female","right","2","2","60"
"529","<div class=""right""></div><div class=""left""></div><div class=""right""></div>","67","flanker","ver","left","incomp","C","single-stim","186","117124","0.0-6.0-133.0","Fri Jun 09 2017 10:39:52 GMT+0200 (CEST)","1496997588571","22","female","right","1","2","61"
"400","<div class=""right""></div><div class=""right""></div><div class=""right""></div>","77","flanker","ver","right","comp","M","single-stim","189","118533","0.0-6.0-136.0","Fri Jun 09 2017 10:39:52 GMT+0200 (CEST)","1496997588571","22","female","right","1","2","62"
"430","<div class=""right"" style=""float: left""></div><div class=""right"" style=""float: left""></div><div class=""right"" style=""float: right""></div>","77","flanker","hor","right","comp","M","single-stim","192","119970","0.0-6.0-139.0","Fri Jun 09 2017 10:39:52 GMT+0200 (CEST)","1496997588571","22","female","right","1","2","63"
"358","<div class=""left"" style=""float: left""></div><div class=""left"" style=""float: left""></div><div class=""left"" style=""float: right""></div>","67","flanker","hor","left","comp","C","single-stim","195","121338","0.0-6.0-142.0","Fri Jun 09 2017 10:39:52 GMT+0200 (CEST)","1496997588571","22","female","right","1","2","64"
"323","<div class=""left""></div><div class=""right""></div><div class=""left""></div>","77","flanker","ver","right","incomp","M","single-stim","198","122669","0.0-6.0-145.0","Fri Jun 09 2017 10:39:52 GMT+0200 (CEST)","1496997588571","22","female","right","1","2","65"
"269","<div class=""right"" style=""float: left""></div><div class=""left""  style=""float: left""></div><div class=""right"" style=""float: right""></div>","67","flanker","hor","left","incomp","C","single-stim","201","123946","0.0-6.0-148.0","Fri Jun 09 2017 10:39:52 GMT+0200 (CEST)","1496997588571","22","female","right","1","2","66"
"393","<div class=""left""></div><div class=""left""></div><div class=""left""></div>","67","flanker","ver","left","comp","C","single-stim","204","125344","0.0-6.0-151.0","Fri Jun 09 2017 10:39:52 GMT+0200 (CEST)","1496997588571","22","female","right","1","2","67"
"380","<div class=""left""></div><div class=""left""></div><div class=""left""></div>","67","flanker","ver","left","comp","C","single-stim","207","126730","0.0-6.0-154.0","Fri Jun 09 2017 10:39:52 GMT+0200 (CEST)","1496997588571","22","female","right","1","2","68"
"351","<div class=""right"" style=""float: left""></div><div class=""right"" style=""float: left""></div><div class=""right"" style=""float: right""></div>","67","flanker","hor","right","comp","M","single-stim","210","128088","0.0-6.0-157.0","Fri Jun 09 2017 10:39:52 GMT+0200 (CEST)","1496997588571","22","female","right","2","2","69"
"351","<div class=""right""></div><div class=""right""></div><div class=""right""></div>","77","flanker","ver","right","comp","M","single-stim","213","129446","0.0-6.0-160.0","Fri Jun 09 2017 10:39:52 GMT+0200 (CEST)","1496997588571","22","female","right","1","2","70"
"410","<div class=""right"" style=""float: left""></div><div class=""right"" style=""float: left""></div><div class=""right"" style=""float: right""></div>","77","flanker","hor","right","comp","M","single-stim","216","130864","0.0-6.0-163.0","Fri Jun 09 2017 10:39:52 GMT+0200 (CEST)","1496997588571","22","female","right","1","2","71"
"349","<div class=""left"" style=""float: left""></div><div class=""left"" style=""float: left""></div><div class=""left"" style=""float: right""></div>","67","flanker","hor","left","comp","C","single-stim","219","132220","0.0-6.0-166.0","Fri Jun 09 2017 10:39:52 GMT+0200 (CEST)","1496997588571","22","female","right","1","2","72"
"398","<div class=""right"" style=""float: left""></div><div class=""left""  style=""float: left""></div><div class=""right"" style=""float: right""></div>","67","flanker","hor","left","incomp","C","single-stim","222","133627","0.0-6.0-169.0","Fri Jun 09 2017 10:39:52 GMT+0200 (CEST)","1496997588571","22","female","right","1","2","73"
"312","<div class=""right"" style=""float: left""></div><div class=""left""  style=""float: left""></div><div class=""right"" style=""float: right""></div>","77","flanker","hor","left","incomp","C","single-stim","225","134946","0.0-6.0-172.0","Fri Jun 09 2017 10:39:52 GMT+0200 (CEST)","1496997588571","22","female","right","2","2","74"
"407","<div class=""right"" style=""float: left""></div><div class=""right"" style=""float: left""></div><div class=""right"" style=""float: right""></div>","77","flanker","hor","right","comp","M","single-stim","228","136360","0.0-6.0-175.0","Fri Jun 09 2017 10:39:52 GMT+0200 (CEST)","1496997588571","22","female","right","1","2","75"
"400","<div class=""right"" style=""float: left""></div><div class=""left""  style=""float: left""></div><div class=""right"" style=""float: right""></div>","67","flanker","hor","left","incomp","C","single-stim","231","137769","0.0-6.0-178.0","Fri Jun 09 2017 10:39:52 GMT+0200 (CEST)","1496997588571","22","female","right","1","2","76"
"323","<div class=""right"" style=""float: left""></div><div class=""left""  style=""float: left""></div><div class=""right"" style=""float: right""></div>","77","flanker","hor","left","incomp","C","single-stim","234","139100","0.0-6.0-181.0","Fri Jun 09 2017 10:39:52 GMT+0200 (CEST)","1496997588571","22","female","right","2","2","77"
"397","<div class=""right"" style=""float: left""></div><div class=""right"" style=""float: left""></div><div class=""right"" style=""float: right""></div>","77","flanker","hor","right","comp","M","single-stim","237","140507","0.0-6.0-184.0","Fri Jun 09 2017 10:39:52 GMT+0200 (CEST)","1496997588571","22","female","right","1","2","78"
"347","<div class=""left""></div><div class=""left""></div><div class=""left""></div>","67","flanker","ver","left","comp","C","single-stim","240","141862","0.0-6.0-187.0","Fri Jun 09 2017 10:39:52 GMT+0200 (CEST)","1496997588571","22","female","right","1","2","79"
"405","<div class=""left"" style=""float: left""></div><div class=""left"" style=""float: left""></div><div class=""left"" style=""float: right""></div>","67","flanker","hor","left","comp","C","single-stim","243","143275","0.0-6.0-190.0","Fri Jun 09 2017 10:39:52 GMT+0200 (CEST)","1496997588571","22","female","right","1","2","80"
"536","<div class=""right""></div><div class=""left""></div><div class=""right""></div>","67","flanker","ver","left","incomp","C","single-stim","246","144821","0.0-6.0-193.0","Fri Jun 09 2017 10:39:52 GMT+0200 (CEST)","1496997588571","22","female","right","1","2","81"
"376","<div class=""left"" style=""float: left""></div><div class=""left"" style=""float: left""></div><div class=""left"" style=""float: right""></div>","67","flanker","hor","left","comp","C","single-stim","249","146205","0.0-6.0-196.0","Fri Jun 09 2017 10:39:52 GMT+0200 (CEST)","1496997588571","22","female","right","1","2","82"
"332","<div class=""right""></div><div class=""left""></div><div class=""right""></div>","67","flanker","ver","left","incomp","C","single-stim","252","147544","0.0-6.0-199.0","Fri Jun 09 2017 10:39:52 GMT+0200 (CEST)","1496997588571","22","female","right","1","2","83"
"393","<div class=""right""></div><div class=""right""></div><div class=""right""></div>","77","flanker","ver","right","comp","M","single-stim","255","148945","0.0-6.0-202.0","Fri Jun 09 2017 10:39:52 GMT+0200 (CEST)","1496997588571","22","female","right","1","2","84"
"382","<div class=""right"" style=""float: left""></div><div class=""right"" style=""float: left""></div><div class=""right"" style=""float: right""></div>","77","flanker","hor","right","comp","M","single-stim","258","150339","0.0-6.0-205.0","Fri Jun 09 2017 10:39:52 GMT+0200 (CEST)","1496997588571","22","female","right","1","2","85"
"389","<div class=""left""></div><div class=""left""></div><div class=""left""></div>","67","flanker","ver","left","comp","C","single-stim","261","151736","0.0-6.0-208.0","Fri Jun 09 2017 10:39:52 GMT+0200 (CEST)","1496997588571","22","female","right","1","2","86"
"386","<div class=""left""></div><div class=""right""></div><div class=""left""></div>","67","flanker","ver","right","incomp","M","single-stim","264","153130","0.0-6.0-211.0","Fri Jun 09 2017 10:39:52 GMT+0200 (CEST)","1496997588571","22","female","right","2","2","87"
"367","<div class=""right""></div><div class=""right""></div><div class=""right""></div>","77","flanker","ver","right","comp","M","single-stim","267","154506","0.0-6.0-214.0","Fri Jun 09 2017 10:39:52 GMT+0200 (CEST)","1496997588571","22","female","right","1","2","88"
"378","<div class=""right""></div><div class=""right""></div><div class=""right""></div>","77","flanker","ver","right","comp","M","single-stim","270","155891","0.0-6.0-217.0","Fri Jun 09 2017 10:39:52 GMT+0200 (CEST)","1496997588571","22","female","right","1","2","89"
"417","<div class=""left""></div><div class=""left""></div><div class=""left""></div>","67","flanker","ver","left","comp","C","single-stim","273","157314","0.0-6.0-220.0","Fri Jun 09 2017 10:39:52 GMT+0200 (CEST)","1496997588571","22","female","right","1","2","90"
"468","<div class=""left""  style=""float: left""></div><div class=""right"" style=""float: left""></div><div class=""left""  style=""float: right""></div>","77","flanker","hor","right","incomp","M","single-stim","276","158788","0.0-6.0-223.0","Fri Jun 09 2017 10:39:52 GMT+0200 (CEST)","1496997588571","22","female","right","1","2","91"
"400","<div class=""left""></div><div class=""right""></div><div class=""left""></div>","77","flanker","ver","right","incomp","M","single-stim","279","160196","0.0-6.0-226.0","Fri Jun 09 2017 10:39:52 GMT+0200 (CEST)","1496997588571","22","female","right","1","2","92"
"383","<div class=""left""  style=""float: left""></div><div class=""right"" style=""float: left""></div><div class=""left""  style=""float: right""></div>","67","flanker","hor","right","incomp","M","single-stim","282","161587","0.0-6.0-229.0","Fri Jun 09 2017 10:39:52 GMT+0200 (CEST)","1496997588571","22","female","right","2","2","93"
"357","<div class=""right""></div><div class=""right""></div><div class=""right""></div>","77","flanker","ver","right","comp","M","single-stim","285","162952","0.0-6.0-232.0","Fri Jun 09 2017 10:39:52 GMT+0200 (CEST)","1496997588571","22","female","right","1","2","94"
"455","<div class=""left""  style=""float: left""></div><div class=""right"" style=""float: left""></div><div class=""left""  style=""float: right""></div>","77","flanker","hor","right","incomp","M","single-stim","288","164416","0.0-6.0-235.0","Fri Jun 09 2017 10:39:52 GMT+0200 (CEST)","1496997588571","22","female","right","1","2","95"
"451","<div class=""left""></div><div class=""right""></div><div class=""left""></div>","67","flanker","ver","right","incomp","M","single-stim","291","165874","0.0-6.0-238.0","Fri Jun 09 2017 10:39:52 GMT+0200 (CEST)","1496997588571","22","female","right","2","2","96"
"439","<div class=""left""  style=""float: left""></div><div class=""right"" style=""float: left""></div><div class=""left""  style=""float: right""></div>","77","flanker","hor","right","incomp","M","single-stim","294","167326","0.0-6.0-241.0","Fri Jun 09 2017 10:39:52 GMT+0200 (CEST)","1496997588571","22","female","right","1","2","97"
"366","<div class=""left""  style=""float: left""></div><div class=""right"" style=""float: left""></div><div class=""left""  style=""float: right""></div>","77","flanker","hor","right","incomp","M","single-stim","297","168700","0.0-6.0-244.0","Fri Jun 09 2017 10:39:52 GMT+0200 (CEST)","1496997588571","22","female","right","1","2","98"
"422","<div class=""right"" style=""float: left""></div><div class=""left""  style=""float: left""></div><div class=""right"" style=""float: right""></div>","77","flanker","hor","left","incomp","C","single-stim","300","170130","0.0-6.0-247.0","Fri Jun 09 2017 10:39:52 GMT+0200 (CEST)","1496997588571","22","female","right","2","2","99"
"370","<div class=""right"" style=""float: left""></div><div class=""right"" style=""float: left""></div><div class=""right"" style=""float: right""></div>","77","flanker","hor","right","comp","M","single-stim","303","171509","0.0-6.0-250.0","Fri Jun 09 2017 10:39:52 GMT+0200 (CEST)","1496997588571","22","female","right","1","2","100"
"408","<div class=""left""></div><div class=""right""></div><div class=""left""></div>","77","flanker","ver","right","incomp","M","single-stim","306","172926","0.0-6.0-253.0","Fri Jun 09 2017 10:39:52 GMT+0200 (CEST)","1496997588571","22","female","right","1","2","101"
"490","<div class=""right""></div><div class=""left""></div><div class=""right""></div>","67","flanker","ver","left","incomp","C","single-stim","309","174427","0.0-6.0-256.0","Fri Jun 09 2017 10:39:52 GMT+0200 (CEST)","1496997588571","22","female","right","1","2","102"
"391","<div class=""left""></div><div class=""left""></div><div class=""left""></div>","67","flanker","ver","left","comp","C","single-stim","312","175826","0.0-6.0-259.0","Fri Jun 09 2017 10:39:52 GMT+0200 (CEST)","1496997588571","22","female","right","1","2","103"
"420","<div class=""right""></div><div class=""left""></div><div class=""right""></div>","67","flanker","ver","left","incomp","C","single-stim","315","177252","0.0-6.0-262.0","Fri Jun 09 2017 10:39:52 GMT+0200 (CEST)","1496997588571","22","female","right","1","2","104"
"433","<div class=""left""  style=""float: left""></div><div class=""right"" style=""float: left""></div><div class=""left""  style=""float: right""></div>","77","flanker","hor","right","incomp","M","single-stim","318","178694","0.0-6.0-265.0","Fri Jun 09 2017 10:39:52 GMT+0200 (CEST)","1496997588571","22","female","right","1","2","105"
"477","<div class=""left""></div><div class=""right""></div><div class=""left""></div>","77","flanker","ver","right","incomp","M","single-stim","321","180179","0.0-6.0-268.0","Fri Jun 09 2017 10:39:52 GMT+0200 (CEST)","1496997588571","22","female","right","1","2","106"
"402","<div class=""left"" style=""float: left""></div><div class=""left"" style=""float: left""></div><div class=""left"" style=""float: right""></div>","67","flanker","hor","left","comp","C","single-stim","324","181591","0.0-6.0-271.0","Fri Jun 09 2017 10:39:52 GMT+0200 (CEST)","1496997588571","22","female","right","1","2","107"
"409","<div class=""left"" style=""float: left""></div><div class=""left"" style=""float: left""></div><div class=""left"" style=""float: right""></div>","67","flanker","hor","left","comp","C","single-stim","327","183009","0.0-6.0-274.0","Fri Jun 09 2017 10:39:52 GMT+0200 (CEST)","1496997588571","22","female","right","1","2","108"
"366","<div class=""right""></div><div class=""right""></div><div class=""right""></div>","77","flanker","ver","right","comp","M","single-stim","330","184383","0.0-6.0-277.0","Fri Jun 09 2017 10:39:52 GMT+0200 (CEST)","1496997588571","22","female","right","1","2","109"
"390","<div class=""right""></div><div class=""left""></div><div class=""right""></div>","67","flanker","ver","left","incomp","C","single-stim","333","185781","0.0-6.0-280.0","Fri Jun 09 2017 10:39:52 GMT+0200 (CEST)","1496997588571","22","female","right","1","2","110"
"397","<div class=""left""  style=""float: left""></div><div class=""right"" style=""float: left""></div><div class=""left""  style=""float: right""></div>","77","flanker","hor","right","incomp","M","single-stim","336","187193","0.0-6.0-283.0","Fri Jun 09 2017 10:39:52 GMT+0200 (CEST)","1496997588571","22","female","right","1","2","111"
"397","<div class=""left""  style=""float: left""></div><div class=""right"" style=""float: left""></div><div class=""left""  style=""float: right""></div>","77","flanker","hor","right","incomp","M","single-stim","339","188596","0.0-6.0-286.0","Fri Jun 09 2017 10:39:52 GMT+0200 (CEST)","1496997588571","22","female","right","1","2","112"
"389","<div class=""left""></div><div class=""left""></div><div class=""left""></div>","67","flanker","ver","left","comp","C","single-stim","344","193410","0.0-9.0-1.0","Fri Jun 09 2017 10:39:52 GMT+0200 (CEST)","1496997588571","22","female","right","1","3","113"
"373","<div class=""right""></div><div class=""right""></div><div class=""right""></div>","77","flanker","ver","right","comp","M","single-stim","347","194791","0.0-9.0-4.0","Fri Jun 09 2017 10:39:52 GMT+0200 (CEST)","1496997588571","22","female","right","1","3","114"
"381","<div class=""right"" style=""float: left""></div><div class=""right"" style=""float: left""></div><div class=""right"" style=""float: right""></div>","77","flanker","hor","right","comp","M","single-stim","350","196181","0.0-9.0-7.0","Fri Jun 09 2017 10:39:52 GMT+0200 (CEST)","1496997588571","22","female","right","1","3","115"
"418","<div class=""left"" style=""float: left""></div><div class=""left"" style=""float: left""></div><div class=""left"" style=""float: right""></div>","67","flanker","hor","left","comp","C","single-stim","353","197606","0.0-9.0-10.0","Fri Jun 09 2017 10:39:52 GMT+0200 (CEST)","1496997588571","22","female","right","1","3","116"
"412","<div class=""left""></div><div class=""right""></div><div class=""left""></div>","77","flanker","ver","right","incomp","M","single-stim","356","199028","0.0-9.0-13.0","Fri Jun 09 2017 10:39:52 GMT+0200 (CEST)","1496997588571","22","female","right","1","3","117"
"439","<div class=""right""></div><div class=""left""></div><div class=""right""></div>","67","flanker","ver","left","incomp","C","single-stim","359","200477","0.0-9.0-16.0","Fri Jun 09 2017 10:39:52 GMT+0200 (CEST)","1496997588571","22","female","right","1","3","118"
"348","<div class=""right""></div><div class=""right""></div><div class=""right""></div>","77","flanker","ver","right","comp","M","single-stim","362","201832","0.0-9.0-19.0","Fri Jun 09 2017 10:39:52 GMT+0200 (CEST)","1496997588571","22","female","right","1","3","119"
"527","<div class=""left"" style=""float: left""></div><div class=""left"" style=""float: left""></div><div class=""left"" style=""float: right""></div>","67","flanker","hor","left","comp","C","single-stim","365","203367","0.0-9.0-22.0","Fri Jun 09 2017 10:39:52 GMT+0200 (CEST)","1496997588571","22","female","right","1","3","120"
"410","<div class=""left""  style=""float: left""></div><div class=""right"" style=""float: left""></div><div class=""left""  style=""float: right""></div>","77","flanker","hor","right","incomp","M","single-stim","368","204786","0.0-9.0-25.0","Fri Jun 09 2017 10:39:52 GMT+0200 (CEST)","1496997588571","22","female","right","1","3","121"
"392","<div class=""right""></div><div class=""left""></div><div class=""right""></div>","67","flanker","ver","left","incomp","C","single-stim","371","206186","0.0-9.0-28.0","Fri Jun 09 2017 10:39:52 GMT+0200 (CEST)","1496997588571","22","female","right","1","3","122"
"356","<div class=""left""  style=""float: left""></div><div class=""right"" style=""float: left""></div><div class=""left""  style=""float: right""></div>","77","flanker","hor","right","incomp","M","single-stim","374","207551","0.0-9.0-31.0","Fri Jun 09 2017 10:39:52 GMT+0200 (CEST)","1496997588571","22","female","right","1","3","123"
"385","<div class=""right""></div><div class=""right""></div><div class=""right""></div>","77","flanker","ver","right","comp","M","single-stim","377","208944","0.0-9.0-34.0","Fri Jun 09 2017 10:39:52 GMT+0200 (CEST)","1496997588571","22","female","right","1","3","124"
"320","<div class=""right""></div><div class=""right""></div><div class=""right""></div>","77","flanker","ver","right","comp","M","single-stim","380","210271","0.0-9.0-37.0","Fri Jun 09 2017 10:39:52 GMT+0200 (CEST)","1496997588571","22","female","right","1","3","125"
"397","<div class=""left""></div><div class=""left""></div><div class=""left""></div>","67","flanker","ver","left","comp","C","single-stim","383","211677","0.0-9.0-40.0","Fri Jun 09 2017 10:39:52 GMT+0200 (CEST)","1496997588571","22","female","right","1","3","126"
"662","<div class=""right"" style=""float: left""></div><div class=""left""  style=""float: left""></div><div class=""right"" style=""float: right""></div>","67","flanker","hor","left","incomp","C","single-stim","386","213351","0.0-9.0-43.0","Fri Jun 09 2017 10:39:52 GMT+0200 (CEST)","1496997588571","22","female","right","1","3","127"
"397","<div class=""right"" style=""float: left""></div><div class=""left""  style=""float: left""></div><div class=""right"" style=""float: right""></div>","67","flanker","hor","left","incomp","C","single-stim","389","214759","0.0-9.0-46.0","Fri Jun 09 2017 10:39:52 GMT+0200 (CEST)","1496997588571","22","female","right","1","3","128"
"355","<div class=""right"" style=""float: left""></div><div class=""right"" style=""float: left""></div><div class=""right"" style=""float: right""></div>","77","flanker","hor","right","comp","M","single-stim","392","216123","0.0-9.0-49.0","Fri Jun 09 2017 10:39:52 GMT+0200 (CEST)","1496997588571","22","female","right","1","3","129"
"364","<div class=""left""  style=""float: left""></div><div class=""right"" style=""float: left""></div><div class=""left""  style=""float: right""></div>","77","flanker","hor","right","incomp","M","single-stim","395","217494","0.0-9.0-52.0","Fri Jun 09 2017 10:39:52 GMT+0200 (CEST)","1496997588571","22","female","right","1","3","130"
"376","<div class=""left"" style=""float: left""></div><div class=""left"" style=""float: left""></div><div class=""left"" style=""float: right""></div>","67","flanker","hor","left","comp","C","single-stim","398","218877","0.0-9.0-55.0","Fri Jun 09 2017 10:39:52 GMT+0200 (CEST)","1496997588571","22","female","right","1","3","131"
"362","<div class=""right"" style=""float: left""></div><div class=""left""  style=""float: left""></div><div class=""right"" style=""float: right""></div>","77","flanker","hor","left","incomp","C","single-stim","401","220250","0.0-9.0-58.0","Fri Jun 09 2017 10:39:52 GMT+0200 (CEST)","1496997588571","22","female","right","2","3","132"
"373","<div class=""left""  style=""float: left""></div><div class=""right"" style=""float: left""></div><div class=""left""  style=""float: right""></div>","77","flanker","hor","right","incomp","M","single-stim","404","221631","0.0-9.0-61.0","Fri Jun 09 2017 10:39:52 GMT+0200 (CEST)","1496997588571","22","female","right","1","3","133"
"414","<div class=""right"" style=""float: left""></div><div class=""left""  style=""float: left""></div><div class=""right"" style=""float: right""></div>","67","flanker","hor","left","incomp","C","single-stim","407","223053","0.0-9.0-64.0","Fri Jun 09 2017 10:39:52 GMT+0200 (CEST)","1496997588571","22","female","right","1","3","134"
"339","<div class=""left""></div><div class=""right""></div><div class=""left""></div>","77","flanker","ver","right","incomp","M","single-stim","410","224400","0.0-9.0-67.0","Fri Jun 09 2017 10:39:52 GMT+0200 (CEST)","1496997588571","22","female","right","1","3","135"
"305","<div class=""left""></div><div class=""left""></div><div class=""left""></div>","67","flanker","ver","left","comp","C","single-stim","413","225714","0.0-9.0-70.0","Fri Jun 09 2017 10:39:52 GMT+0200 (CEST)","1496997588571","22","female","right","1","3","136"
"334","<div class=""right"" style=""float: left""></div><div class=""right"" style=""float: left""></div><div class=""right"" style=""float: right""></div>","77","flanker","hor","right","comp","M","single-stim","416","227055","0.0-9.0-73.0","Fri Jun 09 2017 10:39:52 GMT+0200 (CEST)","1496997588571","22","female","right","1","3","137"
"378","<div class=""right"" style=""float: left""></div><div class=""right"" style=""float: left""></div><div class=""right"" style=""float: right""></div>","77","flanker","hor","right","comp","M","single-stim","419","228443","0.0-9.0-76.0","Fri Jun 09 2017 10:39:52 GMT+0200 (CEST)","1496997588571","22","female","right","1","3","138"
"342","<div class=""right""></div><div class=""left""></div><div class=""right""></div>","67","flanker","ver","left","incomp","C","single-stim","422","229795","0.0-9.0-79.0","Fri Jun 09 2017 10:39:52 GMT+0200 (CEST)","1496997588571","22","female","right","1","3","139"
"360","<div class=""left""  style=""float: left""></div><div class=""right"" style=""float: left""></div><div class=""left""  style=""float: right""></div>","77","flanker","hor","right","incomp","M","single-stim","425","231164","0.0-9.0-82.0","Fri Jun 09 2017 10:39:52 GMT+0200 (CEST)","1496997588571","22","female","right","1","3","140"
"418","<div class=""right"" style=""float: left""></div><div class=""right"" style=""float: left""></div><div class=""right"" style=""float: right""></div>","77","flanker","hor","right","comp","M","single-stim","428","232591","0.0-9.0-85.0","Fri Jun 09 2017 10:39:52 GMT+0200 (CEST)","1496997588571","22","female","right","1","3","141"
"438","<div class=""left"" style=""float: left""></div><div class=""left"" style=""float: left""></div><div class=""left"" style=""float: right""></div>","67","flanker","hor","left","comp","C","single-stim","431","234037","0.0-9.0-88.0","Fri Jun 09 2017 10:39:52 GMT+0200 (CEST)","1496997588571","22","female","right","1","3","142"
"368","<div class=""right""></div><div class=""left""></div><div class=""right""></div>","77","flanker","ver","left","incomp","C","single-stim","434","235413","0.0-9.0-91.0","Fri Jun 09 2017 10:39:52 GMT+0200 (CEST)","1496997588571","22","female","right","2","3","143"
"442","<div class=""left"" style=""float: left""></div><div class=""left"" style=""float: left""></div><div class=""left"" style=""float: right""></div>","67","flanker","hor","left","comp","C","single-stim","437","236863","0.0-9.0-94.0","Fri Jun 09 2017 10:39:52 GMT+0200 (CEST)","1496997588571","22","female","right","1","3","144"
"366","<div class=""left""></div><div class=""right""></div><div class=""left""></div>","77","flanker","ver","right","incomp","M","single-stim","440","238237","0.0-9.0-97.0","Fri Jun 09 2017 10:39:52 GMT+0200 (CEST)","1496997588571","22","female","right","1","3","145"
"351","<div class=""left""></div><div class=""left""></div><div class=""left""></div>","67","flanker","ver","left","comp","C","single-stim","443","239596","0.0-9.0-100.0","Fri Jun 09 2017 10:39:52 GMT+0200 (CEST)","1496997588571","22","female","right","1","3","146"
"402","<div class=""left""></div><div class=""right""></div><div class=""left""></div>","77","flanker","ver","right","incomp","M","single-stim","446","241009","0.0-9.0-103.0","Fri Jun 09 2017 10:39:52 GMT+0200 (CEST)","1496997588571","22","female","right","1","3","147"
"434","<div class=""left""  style=""float: left""></div><div class=""right"" style=""float: left""></div><div class=""left""  style=""float: right""></div>","77","flanker","hor","right","incomp","M","single-stim","449","242450","0.0-9.0-106.0","Fri Jun 09 2017 10:39:52 GMT+0200 (CEST)","1496997588571","22","female","right","1","3","148"
"412","<div class=""right"" style=""float: left""></div><div class=""right"" style=""float: left""></div><div class=""right"" style=""float: right""></div>","77","flanker","hor","right","comp","M","single-stim","452","243871","0.0-9.0-109.0","Fri Jun 09 2017 10:39:52 GMT+0200 (CEST)","1496997588571","22","female","right","1","3","149"
"362","<div class=""right""></div><div class=""left""></div><div class=""right""></div>","67","flanker","ver","left","incomp","C","single-stim","455","245240","0.0-9.0-112.0","Fri Jun 09 2017 10:39:52 GMT+0200 (CEST)","1496997588571","22","female","right","1","3","150"
"470","<div class=""left""></div><div class=""left""></div><div class=""left""></div>","67","flanker","ver","left","comp","C","single-stim","458","246718","0.0-9.0-115.0","Fri Jun 09 2017 10:39:52 GMT+0200 (CEST)","1496997588571","22","female","right","1","3","151"
"403","<div class=""right""></div><div class=""left""></div><div class=""right""></div>","67","flanker","ver","left","incomp","C","single-stim","461","248128","0.0-9.0-118.0","Fri Jun 09 2017 10:39:52 GMT+0200 (CEST)","1496997588571","22","female","right","1","3","152"
"555","<div class=""right"" style=""float: left""></div><div class=""left""  style=""float: left""></div><div class=""right"" style=""float: right""></div>","67","flanker","hor","left","incomp","C","single-stim","464","249691","0.0-9.0-121.0","Fri Jun 09 2017 10:39:52 GMT+0200 (CEST)","1496997588571","22","female","right","1","3","153"
"311","<div class=""right"" style=""float: left""></div><div class=""right"" style=""float: left""></div><div class=""right"" style=""float: right""></div>","77","flanker","hor","right","comp","M","single-stim","467","251015","0.0-9.0-124.0","Fri Jun 09 2017 10:39:52 GMT+0200 (CEST)","1496997588571","22","female","right","1","3","154"
"460","<div class=""right""></div><div class=""left""></div><div class=""right""></div>","67","flanker","ver","left","incomp","C","single-stim","470","252481","0.0-9.0-127.0","Fri Jun 09 2017 10:39:52 GMT+0200 (CEST)","1496997588571","22","female","right","1","3","155"
"430","<div class=""left""></div><div class=""right""></div><div class=""left""></div>","77","flanker","ver","right","incomp","M","single-stim","473","253920","0.0-9.0-130.0","Fri Jun 09 2017 10:39:52 GMT+0200 (CEST)","1496997588571","22","female","right","1","3","156"
"315","<div class=""left"" style=""float: left""></div><div class=""left"" style=""float: left""></div><div class=""left"" style=""float: right""></div>","67","flanker","hor","left","comp","C","single-stim","476","255242","0.0-9.0-133.0","Fri Jun 09 2017 10:39:52 GMT+0200 (CEST)","1496997588571","22","female","right","1","3","157"
"374","<div class=""right""></div><div class=""right""></div><div class=""right""></div>","77","flanker","ver","right","comp","M","single-stim","479","256625","0.0-9.0-136.0","Fri Jun 09 2017 10:39:52 GMT+0200 (CEST)","1496997588571","22","female","right","1","3","158"
"454","<div class=""right""></div><div class=""left""></div><div class=""right""></div>","67","flanker","ver","left","incomp","C","single-stim","482","258086","0.0-9.0-139.0","Fri Jun 09 2017 10:39:52 GMT+0200 (CEST)","1496997588571","22","female","right","1","3","159"
"409","<div class=""left""></div><div class=""left""></div><div class=""left""></div>","67","flanker","ver","left","comp","C","single-stim","485","259504","0.0-9.0-142.0","Fri Jun 09 2017 10:39:52 GMT+0200 (CEST)","1496997588571","22","female","right","1","3","160"
"330","<div class=""right""></div><div class=""right""></div><div class=""right""></div>","77","flanker","ver","right","comp","M","single-stim","488","260842","0.0-9.0-145.0","Fri Jun 09 2017 10:39:52 GMT+0200 (CEST)","1496997588571","22","female","right","1","3","161"
"572","<div class=""right""></div><div class=""right""></div><div class=""right""></div>","77","flanker","ver","right","comp","M","single-stim","491","262422","0.0-9.0-148.0","Fri Jun 09 2017 10:39:52 GMT+0200 (CEST)","1496997588571","22","female","right","1","3","162"
"348","<div class=""right""></div><div class=""left""></div><div class=""right""></div>","77","flanker","ver","left","incomp","C","single-stim","494","263781","0.0-9.0-151.0","Fri Jun 09 2017 10:39:52 GMT+0200 (CEST)","1496997588571","22","female","right","2","3","163"
"439","<div class=""left"" style=""float: left""></div><div class=""left"" style=""float: left""></div><div class=""left"" style=""float: right""></div>","67","flanker","hor","left","comp","C","single-stim","497","265228","0.0-9.0-154.0","Fri Jun 09 2017 10:39:52 GMT+0200 (CEST)","1496997588571","22","female","right","1","3","164"
"430","<div class=""right"" style=""float: left""></div><div class=""left""  style=""float: left""></div><div class=""right"" style=""float: right""></div>","67","flanker","hor","left","incomp","C","single-stim","500","266666","0.0-9.0-157.0","Fri Jun 09 2017 10:39:52 GMT+0200 (CEST)","1496997588571","22","female","right","1","3","165"
"348","<div class=""left""></div><div class=""left""></div><div class=""left""></div>","67","flanker","ver","left","comp","C","single-stim","503","268020","0.0-9.0-160.0","Fri Jun 09 2017 10:39:52 GMT+0200 (CEST)","1496997588571","22","female","right","1","3","166"
"404","<div class=""right""></div><div class=""right""></div><div class=""right""></div>","77","flanker","ver","right","comp","M","single-stim","506","269432","0.0-9.0-163.0","Fri Jun 09 2017 10:39:52 GMT+0200 (CEST)","1496997588571","22","female","right","1","3","167"
"385","<div class=""right""></div><div class=""right""></div><div class=""right""></div>","77","flanker","ver","right","comp","M","single-stim","509","270822","0.0-9.0-166.0","Fri Jun 09 2017 10:39:52 GMT+0200 (CEST)","1496997588571","22","female","right","1","3","168"
"329","<div class=""right""></div><div class=""left""></div><div class=""right""></div>","67","flanker","ver","left","incomp","C","single-stim","512","272158","0.0-9.0-169.0","Fri Jun 09 2017 10:39:52 GMT+0200 (CEST)","1496997588571","22","female","right","1","3","169"
"319","<div class=""right""></div><div class=""right""></div><div class=""right""></div>","77","flanker","ver","right","comp","M","single-stim","515","273485","0.0-9.0-172.0","Fri Jun 09 2017 10:39:52 GMT+0200 (CEST)","1496997588571","22","female","right","1","3","170"
"386","<div class=""left""></div><div class=""right""></div><div class=""left""></div>","67","flanker","ver","right","incomp","M","single-stim","518","274879","0.0-9.0-175.0","Fri Jun 09 2017 10:39:52 GMT+0200 (CEST)","1496997588571","22","female","right","2","3","171"
"371","<div class=""left""  style=""float: left""></div><div class=""right"" style=""float: left""></div><div class=""left""  style=""float: right""></div>","77","flanker","hor","right","incomp","M","single-stim","521","276258","0.0-9.0-178.0","Fri Jun 09 2017 10:39:52 GMT+0200 (CEST)","1496997588571","22","female","right","1","3","172"
"352","<div class=""right"" style=""float: left""></div><div class=""right"" style=""float: left""></div><div class=""right"" style=""float: right""></div>","77","flanker","hor","right","comp","M","single-stim","524","277618","0.0-9.0-181.0","Fri Jun 09 2017 10:39:52 GMT+0200 (CEST)","1496997588571","22","female","right","1","3","173"
"486","<div class=""left"" style=""float: left""></div><div class=""left"" style=""float: left""></div><div class=""left"" style=""float: right""></div>","67","flanker","hor","left","comp","C","single-stim","527","279113","0.0-9.0-184.0","Fri Jun 09 2017 10:39:52 GMT+0200 (CEST)","1496997588571","22","female","right","1","3","174"
"379","<div class=""left""  style=""float: left""></div><div class=""right"" style=""float: left""></div><div class=""left""  style=""float: right""></div>","77","flanker","hor","right","incomp","M","single-stim","530","280502","0.0-9.0-187.0","Fri Jun 09 2017 10:39:52 GMT+0200 (CEST)","1496997588571","22","female","right","1","3","175"
"433","<div class=""right""></div><div class=""left""></div><div class=""right""></div>","67","flanker","ver","left","incomp","C","single-stim","533","281949","0.0-9.0-190.0","Fri Jun 09 2017 10:39:52 GMT+0200 (CEST)","1496997588571","22","female","right","1","3","176"
"537","<div class=""left""></div><div class=""right""></div><div class=""left""></div>","77","flanker","ver","right","incomp","M","single-stim","536","283497","0.0-9.0-193.0","Fri Jun 09 2017 10:39:52 GMT+0200 (CEST)","1496997588571","22","female","right","1","3","177"
"352","<div class=""left""></div><div class=""right""></div><div class=""left""></div>","77","flanker","ver","right","incomp","M","single-stim","539","284860","0.0-9.0-196.0","Fri Jun 09 2017 10:39:52 GMT+0200 (CEST)","1496997588571","22","female","right","1","3","178"
"344","<div class=""right""></div><div class=""right""></div><div class=""right""></div>","77","flanker","ver","right","comp","M","single-stim","542","286216","0.0-9.0-199.0","Fri Jun 09 2017 10:39:52 GMT+0200 (CEST)","1496997588571","22","female","right","1","3","179"
"387","<div class=""right""></div><div class=""right""></div><div class=""right""></div>","77","flanker","ver","right","comp","M","single-stim","545","287613","0.0-9.0-202.0","Fri Jun 09 2017 10:39:52 GMT+0200 (CEST)","1496997588571","22","female","right","1","3","180"
"425","<div class=""right"" style=""float: left""></div><div class=""right"" style=""float: left""></div><div class=""right"" style=""float: right""></div>","77","flanker","hor","right","comp","M","single-stim","548","289048","0.0-9.0-205.0","Fri Jun 09 2017 10:39:52 GMT+0200 (CEST)","1496997588571","22","female","right","1","3","181"
"358","<div class=""right"" style=""float: left""></div><div class=""right"" style=""float: left""></div><div class=""right"" style=""float: right""></div>","77","flanker","hor","right","comp","M","single-stim","551","290415","0.0-9.0-208.0","Fri Jun 09 2017 10:39:52 GMT+0200 (CEST)","1496997588571","22","female","right","1","3","182"
"407","<div class=""right"" style=""float: left""></div><div class=""left""  style=""float: left""></div><div class=""right"" style=""float: right""></div>","67","flanker","hor","left","incomp","C","single-stim","554","291831","0.0-9.0-211.0","Fri Jun 09 2017 10:39:52 GMT+0200 (CEST)","1496997588571","22","female","right","1","3","183"
"307","<div class=""right"" style=""float: left""></div><div class=""left""  style=""float: left""></div><div class=""right"" style=""float: right""></div>","77","flanker","hor","left","incomp","C","single-stim","557","293149","0.0-9.0-214.0","Fri Jun 09 2017 10:39:52 GMT+0200 (CEST)","1496997588571","22","female","right","2","3","184"
"331","<div class=""right"" style=""float: left""></div><div class=""right"" style=""float: left""></div><div class=""right"" style=""float: right""></div>","77","flanker","hor","right","comp","M","single-stim","560","294491","0.0-9.0-217.0","Fri Jun 09 2017 10:39:52 GMT+0200 (CEST)","1496997588571","22","female","right","1","3","185"
"330","<div class=""left""  style=""float: left""></div><div class=""right"" style=""float: left""></div><div class=""left""  style=""float: right""></div>","77","flanker","hor","right","incomp","M","single-stim","563","295831","0.0-9.0-220.0","Fri Jun 09 2017 10:39:52 GMT+0200 (CEST)","1496997588571","22","female","right","1","3","186"
"384","<div class=""left""  style=""float: left""></div><div class=""right"" style=""float: left""></div><div class=""left""  style=""float: right""></div>","67","flanker","hor","right","incomp","M","single-stim","566","297224","0.0-9.0-223.0","Fri Jun 09 2017 10:39:52 GMT+0200 (CEST)","1496997588571","22","female","right","2","3","187"
"399","<div class=""right"" style=""float: left""></div><div class=""left""  style=""float: left""></div><div class=""right"" style=""float: right""></div>","67","flanker","hor","left","incomp","C","single-stim","569","298630","0.0-9.0-226.0","Fri Jun 09 2017 10:39:52 GMT+0200 (CEST)","1496997588571","22","female","right","1","3","188"
"413","<div class=""left"" style=""float: left""></div><div class=""left"" style=""float: left""></div><div class=""left"" style=""float: right""></div>","67","flanker","hor","left","comp","C","single-stim","572","300053","0.0-9.0-229.0","Fri Jun 09 2017 10:39:52 GMT+0200 (CEST)","1496997588571","22","female","right","1","3","189"
"387","<div class=""left""></div><div class=""right""></div><div class=""left""></div>","77","flanker","ver","right","incomp","M","single-stim","575","301450","0.0-9.0-232.0","Fri Jun 09 2017 10:39:52 GMT+0200 (CEST)","1496997588571","22","female","right","1","3","190"
"434","<div class=""left""></div><div class=""right""></div><div class=""left""></div>","77","flanker","ver","right","incomp","M","single-stim","578","302893","0.0-9.0-235.0","Fri Jun 09 2017 10:39:52 GMT+0200 (CEST)","1496997588571","22","female","right","1","3","191"
"420","<div class=""right"" style=""float: left""></div><div class=""left""  style=""float: left""></div><div class=""right"" style=""float: right""></div>","67","flanker","hor","left","incomp","C","single-stim","581","304325","0.0-9.0-238.0","Fri Jun 09 2017 10:39:52 GMT+0200 (CEST)","1496997588571","22","female","right","1","3","192"
"394","<div class=""left""></div><div class=""left""></div><div class=""left""></div>","67","flanker","ver","left","comp","C","single-stim","584","305727","0.0-9.0-241.0","Fri Jun 09 2017 10:39:52 GMT+0200 (CEST)","1496997588571","22","female","right","1","3","193"
"443","<div class=""left""></div><div class=""right""></div><div class=""left""></div>","77","flanker","ver","right","incomp","M","single-stim","587","307178","0.0-9.0-244.0","Fri Jun 09 2017 10:39:52 GMT+0200 (CEST)","1496997588571","22","female","right","1","3","194"
"439","<div class=""right""></div><div class=""left""></div><div class=""right""></div>","67","flanker","ver","left","incomp","C","single-stim","590","308624","0.0-9.0-247.0","Fri Jun 09 2017 10:39:52 GMT+0200 (CEST)","1496997588571","22","female","right","1","3","195"
"343","<div class=""left""  style=""float: left""></div><div class=""right"" style=""float: left""></div><div class=""left""  style=""float: right""></div>","77","flanker","hor","right","incomp","M","single-stim","593","309976","0.0-9.0-250.0","Fri Jun 09 2017 10:39:52 GMT+0200 (CEST)","1496997588571","22","female","right","1","3","196"
"600","<div class=""left"" style=""float: left""></div><div class=""left"" style=""float: left""></div><div class=""left"" style=""float: right""></div>","67","flanker","hor","left","comp","C","single-stim","596","311584","0.0-9.0-253.0","Fri Jun 09 2017 10:39:52 GMT+0200 (CEST)","1496997588571","22","female","right","1","3","197"
"356","<div class=""left""></div><div class=""right""></div><div class=""left""></div>","77","flanker","ver","right","incomp","M","single-stim","599","312950","0.0-9.0-256.0","Fri Jun 09 2017 10:39:52 GMT+0200 (CEST)","1496997588571","22","female","right","1","3","198"
"368","<div class=""left""></div><div class=""left""></div><div class=""left""></div>","67","flanker","ver","left","comp","C","single-stim","602","314326","0.0-9.0-259.0","Fri Jun 09 2017 10:39:52 GMT+0200 (CEST)","1496997588571","22","female","right","1","3","199"
"456","<div class=""left"" style=""float: left""></div><div class=""left"" style=""float: left""></div><div class=""left"" style=""float: right""></div>","67","flanker","hor","left","comp","C","single-stim","605","315791","0.0-9.0-262.0","Fri Jun 09 2017 10:39:52 GMT+0200 (CEST)","1496997588571","22","female","right","1","3","200"
"434","<div class=""left""></div><div class=""left""></div><div class=""left""></div>","67","flanker","ver","left","comp","C","single-stim","608","317235","0.0-9.0-265.0","Fri Jun 09 2017 10:39:52 GMT+0200 (CEST)","1496997588571","22","female","right","1","3","201"
"290","<div class=""right"" style=""float: left""></div><div class=""right"" style=""float: left""></div><div class=""right"" style=""float: right""></div>","67","flanker","hor","right","comp","M","single-stim","611","318536","0.0-9.0-268.0","Fri Jun 09 2017 10:39:52 GMT+0200 (CEST)","1496997588571","22","female","right","2","3","202"
"421","<div class=""right"" style=""float: left""></div><div class=""left""  style=""float: left""></div><div class=""right"" style=""float: right""></div>","77","flanker","hor","left","incomp","C","single-stim","614","319965","0.0-9.0-271.0","Fri Jun 09 2017 10:39:52 GMT+0200 (CEST)","1496997588571","22","female","right","2","3","203"
"379","<div class=""left"" style=""float: left""></div><div class=""left"" style=""float: left""></div><div class=""left"" style=""float: right""></div>","67","flanker","hor","left","comp","C","single-stim","617","321354","0.0-9.0-274.0","Fri Jun 09 2017 10:39:52 GMT+0200 (CEST)","1496997588571","22","female","right","1","3","204"
"356","<div class=""left""></div><div class=""left""></div><div class=""left""></div>","67","flanker","ver","left","comp","C","single-stim","620","322717","0.0-9.0-277.0","Fri Jun 09 2017 10:39:52 GMT+0200 (CEST)","1496997588571","22","female","right","1","3","205"
"494","<div class=""left""  style=""float: left""></div><div class=""right"" style=""float: left""></div><div class=""left""  style=""float: right""></div>","77","flanker","hor","right","incomp","M","single-stim","623","324220","0.0-9.0-280.0","Fri Jun 09 2017 10:39:52 GMT+0200 (CEST)","1496997588571","22","female","right","1","3","206"
"305","<div class=""left""></div><div class=""left""></div><div class=""left""></div>","67","flanker","ver","left","comp","C","single-stim","626","325533","0.0-9.0-283.0","Fri Jun 09 2017 10:39:52 GMT+0200 (CEST)","1496997588571","22","female","right","1","3","207"
"382","<div class=""right"" style=""float: left""></div><div class=""left""  style=""float: left""></div><div class=""right"" style=""float: right""></div>","67","flanker","hor","left","incomp","C","single-stim","629","326924","0.0-9.0-286.0","Fri Jun 09 2017 10:39:52 GMT+0200 (CEST)","1496997588571","22","female","right","1","3","208"
